Folder: splitting_tensile_composite

File: inliers0.01.csv
Cement (kg/m3),Water/Binder Ratio,Fine Aggregate (kg/m3),Coarse Aggregate (kg/m3),Recycled course aggregate percentage (%),SCM (kg/m3),Superplasticizer (kg/m3),Natural  fiber (%),Fiber Type,Length (mm),Age (day),Split Tensile Strength (MPa)
380.0,0.35,950.0,650.0,50,0.0,8.0,0.0,0,0,7,3.17
315.0,0.6,885.0,980.0,0,0.0,0.0,0.0,0,0,28,2.5
340.0,0.6,960.0,820.0,100,0.0,0.0,0.0,0,0,28,2.15
280.0,0.5,752.0,1065.0,100,70.0,0.84,0.0,0,0,28,2.4
400.0,0.52,662.0,1014.0,0,0.0,0.0,0.0,0,0,7,3.6
400.0,0.52,662.0,956.0,60,0.0,0.0,0.0,0,0,7,3.2
400.0,0.52,662.0,1016.0,15,0.0,0.0,0.0,0,0,28,3.7
400.0,0.52,662.0,903.0,100,0.0,0.0,0.0,0,0,28,3.3
400.0,0.52,662.0,995.0,30,0.0,0.0,0.0,0,0,90,3.9
400.0,0.52,662.0,1014.0,0,0.0,0.0,0.0,0,0,180,4.1
400.0,0.52,662.0,956.0,60,0.0,0.0,0.0,0,0,180,3.9
380.0,0.44,784.0,1025.0,0,0.0,2.69,0.0,0,0,28,3.8
380.0,0.44,784.0,1025.0,0,0.0,2.69,0.0,0,0,255,4.2
300.0,0.4,763.0,1315.0,25,0.0,0.0,0.0,0,0,28,3.73846
350.0,0.4,728.0,1304.0,0,0.0,0.0,0.0,0,0,28,4.56445
350.0,0.4,728.0,1090.0,100,0.0,0.0,0.0,0,0,28,3.76777
450.0,0.4,658.0,1089.0,50,0.0,0.0,0.0,0,0,28,5.08669
300.0,0.45,748.0,1285.0,25,0.0,0.0,0.0,0,0,28,3.60303
350.0,0.45,711.0,1273.0,0,0.0,0.0,0.0,0,0,28,4.23265
350.0,0.45,711.0,1070.0,100,0.0,0.0,0.0,0,0,28,3.54294
450.0,0.45,636.0,1050.0,50,0.0,0.0,0.0,0,0,28,4.38418
300.0,0.5,734.0,1265.0,25,0.0,0.0,0.0,0,0,28,3.39839
350.0,0.5,694.0,1243.0,0,0.0,0.0,0.0,0,0,28,4.15837
350.0,0.5,694.0,1040.0,100,0.0,0.0,0.0,0,0,28,3.53327
450.0,0.5,614.0,1010.0,50,0.0,0.0,0.0,0,0,28,3.84452
394.0,0.47,732.84,988.94,0,0.0,0.0,0.5,3,60,7,3.34
394.0,0.47,732.84,988.94,0,0.0,0.0,2.0,3,60,7,3.54
394.0,0.47,732.84,988.94,0,0.0,0.0,0.5,3,60,14,4.49
394.0,0.47,732.84,988.94,0,0.0,0.0,2.0,3,60,14,4.96
394.0,0.47,732.84,988.94,0,0.0,0.0,0.5,3,60,28,4.85
394.0,0.47,732.84,988.94,0,0.0,0.0,2.0,3,60,28,5.0
417.15,0.45,952.0,653.54,0,0.0,4.17,0.0,0,0,7,2.07457
417.15,0.45,952.0,653.54,0,0.0,4.17,0.75,3,50,7,2.30815
417.15,0.45,952.0,653.54,0,0.0,4.17,0.0,0,0,14,2.28025
417.15,0.45,952.0,653.54,0,0.0,4.17,0.75,3,50,14,2.48194
417.15,0.45,952.0,653.54,0,0.0,4.17,0.0,0,0,28,2.76176
417.15,0.45,952.0,653.54,0,0.0,4.17,0.75,3,50,28,2.94989
380.0,0.47,730.0,1400.0,0,0.0,1.9,0.5,4,30,7,2.47
380.0,0.47,730.0,1400.0,0,0.0,1.9,2.0,4,30,7,2.18
380.0,0.47,730.0,1400.0,0,0.0,1.9,1.0,4,30,28,3.46
400.0,0.45,693.0,1377.0,0,0.0,0.0,0.0,0,45,7,1.51949
400.0,0.45,693.0,1377.0,0,0.0,0.0,1.5,4,45,7,1.65138
400.0,0.45,693.0,1377.0,0,0.0,0.0,0.5,4,45,28,2.67567
400.0,0.45,693.0,1377.0,0,0.0,0.0,2.0,4,45,28,1.88201
353.0,0.55,697.0,1256.0,0,0.0,0.0,1.0,5,40,7,7.96
353.0,0.55,697.0,1256.0,0,0.0,0.0,1.0,5,40,14,8.11
353.0,0.55,697.0,1256.0,0,0.0,0.0,1.0,5,40,28,8.71
353.0,0.55,697.0,1256.0,0,0.0,0.0,1.0,5,40,56,8.81
243.0,0.55,709.0,1420.0,0,0.0,0.0,0.0,5,40,28,7.40628
243.0,0.55,708.0,1417.0,0,0.0,0.0,1.0,5,40,28,6.57845
467.4,0.42,595.1,999.1,0,0.0,0.0,0.0,0,10,90,2.80196
467.4,0.42,595.1,999.1,0,0.0,0.0,0.25,1,10,90,2.93361
467.4,0.42,595.1,999.1,0,0.0,0.0,0.5,1,10,90,3.03261
467.4,0.42,595.1,999.1,0,0.0,0.0,1.0,1,10,90,2.99179
467.4,0.42,595.1,999.1,0,0.0,0.0,0.0,0,20,90,2.76114
467.4,0.42,595.1,999.1,0,0.0,0.0,0.25,1,20,90,2.74481
467.4,0.42,595.1,999.1,0,0.0,0.0,0.5,1,20,90,3.23978
467.4,0.42,595.1,999.1,0,0.0,0.0,1.0,1,20,90,2.57948
534.0,0.34,692.0,1050.0,0,0.0,5.6,0.35,1,10,28,5.07
534.0,0.34,692.0,1050.0,0,0.0,5.6,0.35,1,15,28,4.46
534.0,0.34,692.0,1050.0,0,0.0,5.6,0.35,1,25,28,4.36
418.0,0.55,710.0,1022.0,0,0.0,0.0,0.5,2,25,7,2.20304
418.0,0.55,710.0,1022.0,0,0.0,0.0,0.75,2,25,28,3.40278
418.0,0.55,710.0,1022.0,0,0.0,0.0,1.5,2,25,7,1.58439
418.0,0.55,710.0,1022.0,0,0.0,0.0,2.0,2,25,28,2.08619
418.0,0.55,710.0,1022.0,0,0.0,0.0,0.75,2,50,7,2.70484
418.0,0.55,710.0,1022.0,0,0.0,0.0,1.0,2,50,28,2.79143
418.0,0.55,710.0,1022.0,0,0.0,0.0,2.0,2,50,7,1.37991
455.0,0.264,589.0,1219.0,0,80.25,1.2,0.5,6,40,7,5.62903
455.0,0.264,589.0,1219.0,0,80.25,1.2,2.0,6,40,7,5.52884
455.0,0.264,589.0,1219.0,0,80.25,1.2,1.0,6,40,28,7.2035
455.0,0.264,589.0,1219.0,0,80.25,1.2,0.0,0,0,56,7.57088
455.0,0.264,589.0,1219.0,0,80.25,1.2,1.5,6,40,56,7.77126
455.0,0.264,589.0,1219.0,0,80.25,1.2,0.5,6,40,90,8.00028
455.0,0.264,589.0,1219.0,0,80.25,1.2,2.0,6,40,90,7.87623
461.0,0.52,739.0,898.0,0,0.0,0.0,1.0,1,20,7,3.07
461.0,0.52,739.0,898.0,0,0.0,0.0,2.5,1,20,7,2.58
461.0,0.52,739.0,898.0,0,0.0,0.0,1.0,1,40,7,3.27
461.0,0.52,739.0,898.0,0,0.0,0.0,2.5,1,40,7,2.78
461.0,0.52,739.0,898.0,0,0.0,0.0,0.5,1,20,28,3.31
461.0,0.52,739.0,898.0,0,0.0,0.0,2.0,1,20,28,2.97
461.0,0.52,739.0,898.0,0,0.0,0.0,0.5,1,40,28,3.39
461.0,0.52,739.0,898.0,0,0.0,0.0,2.0,1,40,28,3.29
810.0,0.4,648.0,648.0,0,0.0,2.65,0.0,0,0,1,2.1
810.0,0.4,648.0,648.0,0,0.0,2.65,0.0,0,0,28,2.9
513.0,0.4,600.0,1035.0,0,0.0,0.0,0.0,0,0,7,1.73
513.0,0.4,600.0,1035.0,0,0.0,5.643,1.5,4,30,7,2.36
513.0,0.4,600.0,1035.0,0,0.0,0.0,0.0,0,0,28,2.42
513.0,0.4,600.0,1035.0,0,0.0,5.643,1.5,4,30,28,2.95
513.0,0.4,600.0,1035.0,0,153.9,20.52,1.0,4,30,28,2.37
513.0,0.4,600.0,1035.0,0,0.0,3.7962,1.0,4,30,90,3.56
513.0,0.4,600.0,1035.0,0,102.6,17.442,1.0,4,30,90,3.59
500.0,0.482,472.3,1102.0,100,0.0,0.0,0.0,0,0,1,1.5
454.5,0.440484,497.1,1159.9,100,45.5,15.0,0.0,0,0,1,2.4
500.0,0.4286,470.3,1097.4,100,0.0,0.0,0.0,0,0,1,2.1
454.5,0.387239,495.0,1155.0,100,45.5,15.0,0.0,0,0,1,2.9
500.0,0.4458,470.3,1097.4,100,0.0,0.0,0.0,0,0,1,2.1
454.5,0.355776,495.0,1155.0,100,45.5,15.0,0.0,0,0,1,2.9
500.0,0.4924,474.3,1106.7,100,0.0,0.0,0.0,0,0,1,1.8
500.0,0.36,523.7,1221.9,0,0.0,0.0,0.0,0,0,1,2.4
454.5,0.277228,551.2,1286.1,0,45.5,15.0,0.0,0,0,1,3.6
500.0,0.36,523.7,1221.9,0,0.0,0.0,0.0,0,0,3,3.1
454.5,0.277228,551.2,1286.1,0,45.5,15.0,0.0,0,0,3,3.6
500.0,0.36,523.7,1221.9,0,0.0,0.0,0.0,0,0,3,2.9
454.5,0.277228,551.2,1286.1,0,45.5,15.0,0.0,0,0,3,4.4
500.0,0.36,523.7,1221.9,0,0.0,0.0,0.0,0,0,3,2.9
454.5,0.277228,551.2,1286.1,0,45.5,15.0,0.0,0,0,3,4.4
500.0,0.36,523.7,1221.9,0,0.0,0.0,0.0,0,0,3,2.9
454.5,0.277228,551.2,1286.1,0,45.5,15.0,0.0,0,0,3,4.4
500.0,0.36,491.0,1145.7,100,0.0,0.0,0.0,0,0,3,2.9
454.5,0.277228,516.8,1205.8,100,45.5,15.0,0.0,0,0,3,3.6
500.0,0.414,486.6,1135.4,100,0.0,0.0,0.0,0,0,7,3.3
454.5,0.341034,512.5,1195.0,100,45.5,15.0,0.0,0,0,7,3.7
500.0,0.36,485.5,1132.0,100,0.0,0.0,0.0,0,0,7,3.0
454.5,0.292849,511.0,1191.4,100,45.5,15.0,0.0,0,0,7,4.7
500.0,0.36,485.5,1132.0,100,0.0,0.0,0.0,0,0,7,3.4
454.5,0.29923,511.0,1191.4,100,45.5,15.0,0.0,0,0,7,4.3
500.0,0.3754,488.5,1138.9,100,0.0,0.0,0.0,0,0,7,3.0
454.5,0.289109,514.1,1198.7,100,45.5,15.0,0.0,0,0,7,4.2
500.0,0.4134,478.2,1115.8,100,0.0,0.0,0.0,0,0,7,3.0
454.5,0.293289,503.3,1174.5,100,45.5,15.0,0.0,0,0,7,3.8
500.0,0.482,472.3,1102.0,100,0.0,0.0,0.0,0,0,14,3.2
454.5,0.440484,497.1,1159.9,100,45.5,15.0,0.0,0,0,14,3.9
500.0,0.4286,470.3,1097.4,100,0.0,0.0,0.0,0,0,14,3.0
454.5,0.387239,495.0,1155.0,100,45.5,15.0,0.0,0,0,14,4.5
500.0,0.4458,470.3,1097.4,100,0.0,0.0,0.0,0,0,14,3.5
454.5,0.355776,495.0,1155.0,100,45.5,15.0,0.0,0,0,14,4.4
500.0,0.4924,474.3,1106.7,100,0.0,0.0,0.0,0,0,14,3.1
500.0,0.36,523.7,1221.9,0,0.0,0.0,0.0,0,0,14,3.4
454.5,0.277228,551.2,1286.1,0,45.5,15.0,0.0,0,0,14,5.5
500.0,0.36,523.7,1221.9,0,0.0,0.0,0.0,0,0,28,4.1
454.5,0.277228,551.2,1286.1,0,45.5,15.0,0.0,0,0,28,5.0
500.0,0.36,523.7,1221.9,0,0.0,0.0,0.0,0,0,28,3.6
454.5,0.277228,551.2,1286.1,0,45.5,15.0,0.0,0,0,28,5.8
500.0,0.36,523.7,1221.9,0,0.0,0.0,0.0,0,0,28,3.6
454.5,0.277228,551.2,1286.1,0,45.5,15.0,0.0,0,0,28,5.8
500.0,0.36,523.7,1221.9,0,0.0,0.0,0.0,0,0,28,3.6
454.5,0.277228,551.2,1286.1,0,45.5,15.0,0.0,0,0,28,5.8
500.0,0.36,491.0,1145.7,100,0.0,0.0,0.0,0,0,28,3.8
454.5,0.277228,516.8,1205.8,100,45.5,15.0,0.0,0,0,28,4.8
500.0,0.414,486.6,1135.4,100,0.0,0.0,0.0,0,0,56,4.3
454.5,0.341034,512.5,1195.0,100,45.5,15.0,0.0,0,0,56,4.9
500.0,0.36,485.5,1132.0,100,0.0,0.0,0.0,0,0,56,3.6
454.5,0.292849,511.0,1191.4,100,45.5,15.0,0.0,0,0,56,5.5
500.0,0.36,485.5,1132.0,100,0.0,0.0,0.0,0,0,56,4.2
454.5,0.29923,511.0,1191.4,100,45.5,15.0,0.0,0,0,56,5.5
500.0,0.3754,488.5,1138.9,100,0.0,0.0,0.0,0,0,56,3.7
454.5,0.289109,514.1,1198.7,100,45.5,15.0,0.0,0,0,56,4.8
500.0,0.4134,478.2,1115.8,100,0.0,0.0,0.0,0,0,56,3.8
454.5,0.293289,503.3,1174.5,100,45.5,15.0,0.0,0,0,56,4.9
500.0,0.482,472.3,1102.0,100,0.0,0.0,0.0,0,0,90,3.9
454.5,0.440484,497.1,1159.9,100,45.5,15.0,0.0,0,0,90,4.7
500.0,0.4286,470.3,1097.4,100,0.0,0.0,0.0,0,0,90,3.7
454.5,0.387239,495.0,1155.0,100,45.5,15.0,0.0,0,0,90,5.1
500.0,0.4458,470.3,1097.4,100,0.0,0.0,0.0,0,0,90,3.8
454.5,0.355776,495.0,1155.0,100,45.5,15.0,0.0,0,0,90,5.3
500.0,0.4924,474.3,1106.7,100,0.0,0.0,0.0,0,0,90,3.5
500.0,0.36,523.7,1221.9,0,0.0,0.0,0.0,0,0,90,3.9
454.5,0.277228,551.2,1286.1,0,45.5,15.0,0.0,0,0,90,6.2
454.5,0.293289,503.3,1174.5,100,45.5,15.0,0.0,0,0,90,5.1